File: E5_bicarbonato.txt
"E5_bicarbonato - RawData"
"Wavelength nm."	"Abs."
190.000
191.000
192.000
193.000
194.000
195.000
196.000
197.000
198.000
199.000
200.000	3.919159
201.000	3.827698
202.000	3.813126
203.000	3.931824
204.000	3.610291
205.000	3.889603
206.000	3.758743
207.000	3.942734
208.000	3.711868
209.000	3.624100
210.000	3.747650
211.000	3.879639
212.000	3.925583
213.000	3.601395
214.000	3.983383
215.000	3.964859
216.000	3.884537
217.000	3.872940
218.000	3.875595
219.000	3.969666
220.000	3.915985
221.000	3.823318
222.000	3.903625
223.000	3.816650
224.000	3.905655
225.000	3.935516
226.000	3.878403
227.000	3.832077
228.000	3.893448
229.000	3.465424
230.000	3.389496
231.000	3.032272
232.000	2.860153
233.000	2.725311
234.000	2.624710
235.000	2.522202
236.000	2.384216
237.000	2.325897
238.000	2.244156
239.000	2.199142
240.000	2.158752
241.000	2.112289
242.000	2.079453
243.000	2.050858
244.000	2.025131
245.000	2.003571
246.000	1.985046
247.000	1.962662
248.000	1.945679
249.000	1.924744
250.000	1.917374
251.000	1.909332
252.000	1.891006
253.000	1.896912
254.000	1.896042
255.000	1.895477
256.000	1.905457
257.000	1.914658
258.000	1.924561
259.000	1.931168
260.000	1.937057
261.000	1.919037
262.000	1.935165
263.000	1.925171
264.000	1.914551
265.000	1.908585
266.000	1.902328
267.000	1.896942
268.000	1.873291
269.000	1.857651
270.000	1.827911
271.000	1.816742
272.000	1.774750
273.000	1.755554
274.000	1.721970
275.000	1.681763
276.000	1.656372
277.000	1.611221
278.000	1.579407
279.000	1.548874
280.000	1.503952
281.000	1.473511
282.000	1.438782
283.000	1.407959
284.000	1.380203
285.000	1.356155
286.000	1.333405
287.000	1.311676
288.000	1.297073
289.000	1.279572
290.000	1.271027
291.000	1.251602
292.000	1.237259
293.000	1.224030
294.000	1.220184
295.000	1.207397
296.000	1.207581
297.000	1.202255
298.000	1.202805
299.000	1.200256
300.000	1.197067
301.000	1.201691
302.000	1.204193
303.000	1.211197
304.000	1.214066
305.000	1.222260
306.000	1.227615
307.000	1.233521
308.000	1.245789
309.000	1.248474
310.000	1.257477
311.000	1.266815
312.000	1.270142
313.000	1.276703
314.000	1.281097
315.000	1.283585
316.000	1.287003
317.000	1.293854
318.000	1.294037
319.000	1.297485
320.000	1.299591
321.000	1.304169
322.000	1.298004
323.000	1.305222
324.000	1.308228
325.000	1.308853
326.000	1.311584
327.000	1.308731
328.000	1.309540
329.000	1.309692
330.000	1.310745
331.000	1.303436
332.000	1.305130
333.000	1.297028
334.000	1.298309
335.000	1.288452
336.000	1.278198
337.000	1.273804
338.000	1.264572
339.000	1.265213
340.000	1.269760
341.000	1.266769
342.000	1.253281
343.000	1.251083
344.000	1.241425
345.000	1.228256
346.000	1.216248
347.000	1.213272
348.000	1.193253
349.000	1.189499
350.000	1.183212
351.000	1.160141
352.000	1.158493
353.000	1.154327
354.000	1.139572
355.000	1.137375
356.000	1.129196
357.000	1.123596
358.000	1.112198
359.000	1.107315
360.000	1.096390
361.000	1.090408
362.000	1.081482
363.000	1.081100
364.000	1.077438
365.000	1.061478
366.000	1.059677
367.000	1.050842
368.000	1.045868
369.000	1.040253
370.000	1.036667
371.000	1.032745
372.000	1.028000
373.000	1.020142
374.000	1.017593
375.000	1.009201
376.000	1.008240
377.000	0.995819
378.000	0.992004
379.000	0.985077
380.000	0.979065
381.000	0.972855
382.000	0.963959
383.000	0.954132
384.000	0.947250
385.000	0.938599
386.000	0.926743
387.000	0.920227
388.000	0.909653
389.000	0.899307
390.000	0.888718
391.000	0.877991
392.000	0.866531
393.000	0.853485
394.000	0.842804
395.000	0.831085
396.000	0.818283
397.000	0.804276
398.000	0.791672
399.000	0.776840
400.000	0.763550
401.000	0.748718
402.000	0.733063
403.000	0.718521
404.000	0.703018
405.000	0.687149
406.000	0.672012
407.000	0.656418
408.000	0.640961
409.000	0.625183
410.000	0.610413
411.000	0.594406
412.000	0.578644
413.000	0.564804
414.000	0.549774
415.000	0.534500
416.000	0.520294
417.000	0.505173
418.000	0.490097
419.000	0.476410
420.000	0.462326
421.000	0.449371
422.000	0.434875
423.000	0.421143
424.000	0.407928
425.000	0.394409
426.000	0.381210
427.000	0.368546
428.000	0.355606
429.000	0.343536
430.000	0.331802
431.000	0.319778
432.000	0.308426
433.000	0.296875
434.000	0.286041
435.000	0.275589
436.000	0.266144
437.000	0.255981
438.000	0.246902
439.000	0.238144
440.000	0.229263
441.000	0.220657
442.000	0.212112
443.000	0.204041
444.000	0.196747
445.000	0.189301
446.000	0.182220
447.000	0.175125
448.000	0.168365
449.000	0.162079
450.000	0.155838
451.000	0.149399
452.000	0.143417
453.000	0.138138
454.000	0.132523
455.000	0.127213
456.000	0.122604
457.000	0.117767
458.000	0.113342
459.000	0.108994
460.000	0.104950
461.000	0.101364
462.000	0.097885
463.000	0.094299
464.000	0.091110
465.000	0.087967
466.000	0.085281
467.000	0.082306
468.000	0.079697
469.000	0.077499
470.000	0.075302
471.000	0.073135
472.000	0.071030
473.000	0.069412
474.000	0.067673
475.000	0.066025
476.000	0.064713
477.000	0.063232
478.000	0.062180
479.000	0.061279
480.000	0.060165
481.000	0.059464
482.000	0.058929
483.000	0.058441
484.000	0.057999
485.000	0.057755
486.000	0.057556
487.000	0.057419
488.000	0.057281
489.000	0.057236
490.000	0.057251
491.000	0.057388
492.000	0.057602
493.000	0.057770
494.000	0.058121
495.000	0.058212
496.000	0.058762
497.000	0.059296
498.000	0.059799
499.000	0.060577
500.000	0.061310
501.000	0.062088
502.000	0.062897
503.000	0.063660
504.000	0.064713
505.000	0.065659
506.000	0.066772
507.000	0.067917
508.000	0.069107
509.000	0.070190
510.000	0.071548
511.000	0.072556
512.000	0.073883
513.000	0.075409
514.000	0.076599
515.000	0.078003
516.000	0.079559
517.000	0.081177
518.000	0.082733
519.000	0.084610
520.000	0.086502
521.000	0.088333
522.000	0.090103
523.000	0.092041
524.000	0.094116
525.000	0.096298
526.000	0.098434
527.000	0.100693
528.000	0.102829
529.000	0.105209
530.000	0.107758
531.000	0.109970
532.000	0.112625
533.000	0.115372
534.000	0.117905
535.000	0.120407
536.000	0.123260
537.000	0.126205
538.000	0.129074
539.000	0.131943
540.000	0.134949
541.000	0.138062
542.000	0.141235
543.000	0.144135
544.000	0.147293
545.000	0.150757
546.000	0.154144
547.000	0.157379
548.000	0.160736
549.000	0.164108
550.000	0.167679
551.000	0.171204
552.000	0.174667
553.000	0.178345
554.000	0.181747
555.000	0.185440
556.000	0.188980
557.000	0.192307
558.000	0.195816
559.000	0.199326
560.000	0.202515
561.000	0.205887
562.000	0.209244
563.000	0.212524
564.000	0.215530
565.000	0.219223
566.000	0.222656
567.000	0.225830
568.000	0.229126
569.000	0.232224
570.000	0.235489
571.000	0.238770
572.000	0.241714
573.000	0.244553
574.000	0.247162
575.000	0.250076
576.000	0.252609
577.000	0.255493
578.000	0.258652
579.000	0.261841
580.000	0.265030
581.000	0.268143
582.000	0.271317
583.000	0.274109
584.000	0.277084
585.000	0.280136
586.000	0.283234
587.000	0.286316
588.000	0.290573
589.000	0.294205
590.000	0.296906
591.000	0.299896
592.000	0.302429
593.000	0.305023
594.000	0.307236
595.000	0.309601
596.000	0.311996
597.000	0.314102
598.000	0.315948
599.000	0.317719
600.000	0.319229
601.000	0.320419
602.000	0.321289
603.000	0.322021
604.000	0.322525
605.000	0.322464
606.000	0.322281
607.000	0.321899
608.000	0.320984
609.000	0.319672
610.000	0.318253
611.000	0.316254
612.000	0.313629
613.000	0.311096
614.000	0.307953
615.000	0.304153
616.000	0.300064
617.000	0.295731
618.000	0.290848
619.000	0.285522
620.000	0.279984
621.000	0.274002
622.000	0.267365
623.000	0.260788
624.000	0.253693
625.000	0.246185
626.000	0.238724
627.000	0.230865
628.000	0.222946
629.000	0.214859
630.000	0.206894
631.000	0.199478
632.000	0.191574
633.000	0.183609
634.000	0.176147
635.000	0.168564
636.000	0.161240
637.000	0.153503
638.000	0.146561
639.000	0.139618
640.000	0.133347
641.000	0.126831
642.000	0.121033
643.000	0.114868
644.000	0.109375
645.000	0.104218
646.000	0.099045
647.000	0.094315
648.000	0.089767
649.000	0.085312
650.000	0.081207
651.000	0.077332
652.000	0.073898
653.000	0.070465
654.000	0.067429
655.000	0.064529
656.000	0.062149
657.000	0.059586
658.000	0.057419
659.000	0.055237
660.000	0.053268
661.000	0.051422
662.000	0.049805
663.000	0.048294
664.000	0.046921
665.000	0.045624
666.000	0.044540
667.000	0.043427
668.000	0.042450
669.000	0.041443
670.000	0.040558
671.000	0.039597
672.000	0.038788
673.000	0.038086
674.000	0.037216
675.000	0.036285
676.000	0.035477
677.000	0.035004
678.000	0.034302
679.000	0.033676
680.000	0.033081
681.000	0.032196
682.000	0.031876
683.000	0.031403
684.000	0.030914
685.000	0.030518
686.000	0.029922
687.000	0.029404
688.000	0.029129
689.000	0.028778
690.000	0.028275
691.000	0.027832
692.000	0.027344
693.000	0.027405
694.000	0.027634
695.000	0.027512
696.000	0.026825
697.000	0.025467
698.000	0.023727
699.000	0.021606
700.000	0.019485
701.000	0.017212
702.000	0.015167
703.000	0.013763
704.000	0.012924
705.000	0.012238
706.000	0.011688
707.000	0.011185
708.000	0.010635
709.000	0.010162
710.000	0.009659
711.000	0.009262
712.000	0.008957
713.000	0.008621
714.000	0.008102
715.000	0.007690
716.000	0.007339
717.000	0.006958
718.000	0.006500
719.000	0.006256
720.000	0.005768
721.000	0.005478
722.000	0.005264
723.000	0.004776
724.000	0.004608
725.000	0.004425
726.000	0.004135
727.000	0.003754
728.000	0.003586
729.000	0.003143
730.000	0.002991
731.000	0.002686
732.000	0.002518
733.000	0.002380
734.000	0.002014
735.000	0.001892
736.000	0.001709
737.000	0.001404
738.000	0.001343
739.000	0.001114
740.000	0.000961
741.000	0.000946
742.000	0.000793
743.000	0.000656
744.000	0.000504
745.000	0.000488
746.000	0.000275
747.000	0.000214
748.000	0.000122
749.000	0.000000
750.000	-0.000137
751.000	-0.000214
752.000	-0.000183
753.000	-0.000366
754.000	-0.000443
755.000	-0.000458
756.000	-0.000473
757.000	-0.000534
758.000	-0.000534
759.000	-0.000504
760.000	-0.000412
761.000	-0.000275
762.000	-0.000336
763.000	-0.000381
764.000	-0.000336
765.000	-0.000397
766.000	-0.000458
767.000	-0.000488
768.000	-0.000488
769.000	-0.000565
770.000	-0.000610
771.000	-0.000519
772.000	-0.000580
773.000	-0.000656
774.000	-0.000610
775.000	-0.000748
776.000	-0.000687
777.000	-0.000824
778.000	-0.000854
779.000	-0.000732
780.000	-0.000778
781.000	-0.000824
782.000	-0.000748
783.000	-0.000671
784.000	-0.000717
785.000	-0.000763
786.000	-0.000748
787.000	-0.000763
788.000	-0.000595
789.000	-0.000671
790.000	-0.000671
791.000	-0.000732
792.000	-0.000732
793.000	-0.000748
794.000	-0.000687
795.000	-0.000793
796.000	-0.000580
797.000	-0.000626
798.000	-0.000519
799.000	-0.000595
800.000	-0.000458
801.000
802.000
803.000
804.000
805.000
806.000
807.000
808.000
809.000
810.000
811.000
812.000
813.000
814.000
815.000
816.000
817.000
818.000
819.000
820.000
821.000
822.000
823.000
824.000
825.000
826.000
827.000
828.000
829.000
830.000
831.000
832.000
833.000
834.000
835.000
836.000
837.000
838.000
839.000
840.000
841.000
842.000
843.000
844.000
845.000
846.000
847.000
848.000
849.000
850.000
851.000
852.000
853.000
854.000
855.000
856.000
857.000
858.000
859.000
860.000
861.000
862.000
863.000
864.000
865.000
866.000
867.000
868.000
869.000
870.000
871.000
872.000
873.000
874.000
875.000
876.000
877.000
878.000
879.000
880.000
881.000
882.000
883.000
884.000
885.000
886.000
887.000
888.000
889.000
890.000
891.000
892.000
893.000
894.000
895.000
896.000
897.000
898.000
899.000
900.000
901.000
902.000
903.000
904.000
905.000
906.000
907.000
908.000
909.000
910.000
911.000
912.000
913.000
914.000
915.000
916.000
917.000
918.000
919.000
920.000
921.000
922.000
923.000
924.000
925.000
926.000
927.000
928.000
929.000
930.000
931.000
932.000
933.000
934.000
935.000
936.000
937.000
938.000
939.000
940.000
941.000
942.000
943.000
944.000
945.000
946.000
947.000
948.000
949.000
950.000
951.000
952.000
953.000
954.000
955.000
956.000
957.000
958.000
959.000
960.000
961.000
962.000
963.000
964.000
965.000
966.000
967.000
968.000
969.000
970.000
971.000
972.000
973.000
974.000
975.000
976.000
977.000
978.000
979.000
980.000
981.000
982.000
983.000
984.000
985.000
986.000
987.000
988.000
989.000
990.000
991.000
992.000
993.000
994.000
995.000
996.000
997.000
998.000
999.000
1000.000
1001.000
1002.000
1003.000
1004.000
1005.000
1006.000
1007.000
1008.000
1009.000
1010.000
1011.000
1012.000
1013.000
1014.000
1015.000
1016.000
1017.000
1018.000
1019.000
1020.000
1021.000
1022.000
1023.000
1024.000
1025.000
1026.000
1027.000
1028.000
1029.000
1030.000
1031.000
1032.000
1033.000
1034.000
1035.000
1036.000
1037.000
1038.000
1039.000
1040.000
1041.000
1042.000
1043.000
1044.000
1045.000
1046.000
1047.000
1048.000
1049.000
1050.000
1051.000
1052.000
1053.000
1054.000
1055.000
1056.000
1057.000
1058.000
1059.000
1060.000
1061.000
1062.000
1063.000
1064.000
1065.000
1066.000
1067.000
1068.000
1069.000
1070.000
1071.000
1072.000
1073.000
1074.000
1075.000
1076.000
1077.000
1078.000
1079.000
1080.000
1081.000
1082.000
1083.000
1084.000
1085.000
1086.000
1087.000
1088.000
1089.000
1090.000
1091.000
1092.000
1093.000
1094.000
1095.000
1096.000
1097.000
1098.000
1099.000
1100.000